File: data/spectra/lawn_insitu.txt
# Wavelength (nm), Reflectance
350.0000  0.01505
352.0000  0.01416
354.0000  0.01384
356.0000  0.01346
358.0000  0.01376
360.0000  0.01348
362.0000  0.01339
364.0000  0.01306
366.0000  0.01293
368.0000  0.01304
370.0000  0.01279
372.0000  0.01281
374.0000  0.01297
376.0000  0.01312
378.0000  0.01336
380.0000  0.01367
382.0000  0.01378
384.0000  0.01390
386.0000  0.01380
388.0000  0.01392
390.0000  0.01402
392.0000  0.01415
394.0000  0.01424
396.0000  0.01456
398.0000  0.01456
400.0000  0.01479
402.0000  0.01495
404.0000  0.01542
406.0000  0.01586
408.0000  0.01662
410.0000  0.01725
412.0000  0.01791
414.0000  0.01866
416.0000  0.01935
418.0000  0.02012
420.0000  0.02087
422.0000  0.02164
424.0000  0.02239
426.0000  0.02296
428.0000  0.02363
430.0000  0.02418
432.0000  0.02467
434.0000  0.02507
436.0000  0.02552
438.0000  0.02577
440.0000  0.02614
442.0000  0.02642
444.0000  0.02670
446.0000  0.02703
448.0000  0.02738
450.0000  0.02771
452.0000  0.02802
454.0000  0.02833
456.0000  0.02860
458.0000  0.02880
460.0000  0.02903
462.0000  0.02910
464.0000  0.02923
466.0000  0.02941
468.0000  0.02948
470.0000  0.02951
472.0000  0.02962
474.0000  0.02977
476.0000  0.02977
478.0000  0.02986
480.0000  0.03001
482.0000  0.03007
484.0000  0.03022
486.0000  0.03044
488.0000  0.03073
490.0000  0.03089
492.0000  0.03127
494.0000  0.03162
496.0000  0.03211
498.0000  0.03275
500.0000  0.03354
502.0000  0.03445
504.0000  0.03552
506.0000  0.03678
508.0000  0.03832
510.0000  0.04017
512.0000  0.04231
514.0000  0.04474
516.0000  0.04753
518.0000  0.05089
520.0000  0.05440
522.0000  0.05797
524.0000  0.06164
526.0000  0.06533
528.0000  0.06903
530.0000  0.07219
532.0000  0.07502
534.0000  0.07759
536.0000  0.07971
538.0000  0.08145
540.0000  0.08299
542.0000  0.08423
544.0000  0.08532
546.0000  0.08637
548.0000  0.08732
550.0000  0.08810
552.0000  0.08875
554.0000  0.08890
556.0000  0.08869
558.0000  0.08807
560.0000  0.08695
562.0000  0.08567
564.0000  0.08399
566.0000  0.08197
568.0000  0.07969
570.0000  0.07737
572.0000  0.07501
574.0000  0.07285
576.0000  0.07084
578.0000  0.06905
580.0000  0.06748
582.0000  0.06605
584.0000  0.06490
586.0000  0.06389
588.0000  0.06304
590.0000  0.06228
592.0000  0.06170
594.0000  0.06112
596.0000  0.06076
598.0000  0.06039
600.0000  0.06000
602.0000  0.05957
604.0000  0.05891
606.0000  0.05812
608.0000  0.05720
610.0000  0.05602
612.0000  0.05481
614.0000  0.05363
616.0000  0.05258
618.0000  0.05159
620.0000  0.05072
622.0000  0.05016
624.0000  0.04972
626.0000  0.04948
628.0000  0.04944
630.0000  0.04933
632.0000  0.04938
634.0000  0.04911
636.0000  0.04877
638.0000  0.04800
640.0000  0.04716
642.0000  0.04612
644.0000  0.04491
646.0000  0.04375
648.0000  0.04268
650.0000  0.04176
652.0000  0.04111
654.0000  0.04048
656.0000  0.03984
658.0000  0.03874
660.0000  0.03760
662.0000  0.03641
664.0000  0.03542
666.0000  0.03450
668.0000  0.03375
670.0000  0.03323
672.0000  0.03292
674.0000  0.03274
676.0000  0.03269
678.0000  0.03284
680.0000  0.03316
682.0000  0.03377
684.0000  0.03476
686.0000  0.03658
688.0000  0.03994
690.0000  0.04324
692.0000  0.04781
694.0000  0.05391
696.0000  0.06151
698.0000  0.07036
700.0000  0.08043
702.0000  0.09101
704.0000  0.10178
706.0000  0.11263
708.0000  0.12387
710.0000  0.13573
712.0000  0.14832
714.0000  0.16194
716.0000  0.17664
718.0000  0.19354
720.0000  0.21202
722.0000  0.22948
724.0000  0.24877
726.0000  0.26928
728.0000  0.28947
730.0000  0.30982
732.0000  0.32974
734.0000  0.34824
736.0000  0.36624
738.0000  0.38295
740.0000  0.39871
742.0000  0.41250
744.0000  0.42468
746.0000  0.43550
748.0000  0.44461
750.0000  0.45261
752.0000  0.45952
754.0000  0.46516
756.0000  0.46975
758.0000  0.47381
760.0000  0.48382
762.0000  0.49925
764.0000  0.49530
766.0000  0.48988
768.0000  0.48740
770.0000  0.48776
772.0000  0.48887
774.0000  0.48977
776.0000  0.49111
778.0000  0.49232
780.0000  0.49294
782.0000  0.49356
784.0000  0.49452
786.0000  0.49547
788.0000  0.49559
790.0000  0.49665
792.0000  0.49798
794.0000  0.49889
796.0000  0.50025
798.0000  0.50053
800.0000  0.50115
802.0000  0.50162
804.0000  0.50259
806.0000  0.50248
808.0000  0.50374
810.0000  0.50464
812.0000  0.50567
814.0000  0.50571
816.0000  0.50766
818.0000  0.50896
820.0000  0.50842
822.0000  0.50972
824.0000  0.50964
826.0000  0.50998
828.0000  0.51108
830.0000  0.51134
832.0000  0.51114
834.0000  0.51260
836.0000  0.51278
838.0000  0.51320
840.0000  0.51457
842.0000  0.51495
844.0000  0.51584
846.0000  0.51600
848.0000  0.51595
850.0000  0.51830
852.0000  0.51984
854.0000  0.51766
856.0000  0.51869
858.0000  0.52011
860.0000  0.51803
862.0000  0.51882
864.0000  0.52088
866.0000  0.52179
868.0000  0.52081
870.0000  0.52318
872.0000  0.52363
874.0000  0.52428
876.0000  0.52388
878.0000  0.52507
880.0000  0.52509
882.0000  0.52386
884.0000  0.52340
886.0000  0.52550
888.0000  0.52697
890.0000  0.52812
892.0000  0.52754
894.0000  0.52920
896.0000  0.52971
898.0000  0.53104
900.0000  0.53027
902.0000  0.53095
904.0000  0.53049
906.0000  0.53146
908.0000  0.53191
910.0000  0.53271
912.0000  0.53230
914.0000  0.53264
916.0000  0.53287
918.0000  0.53216
920.0000  0.53307
922.0000  0.53185
924.0000  0.53241
926.0000  0.53175
928.0000  0.53172
930.0000  0.53234
932.0000  0.53381
934.0000  0.53408
936.0000  0.53328
938.0000  0.53172
940.0000  0.52999
942.0000  0.52947
944.0000  0.52865
946.0000  0.52708
948.0000  0.52534
950.0000  0.52335
952.0000  0.52110
954.0000  0.51900
956.0000  0.51589
958.0000  0.51464
960.0000  0.51326
962.0000  0.51227
964.0000  0.51111
966.0000  0.51043
968.0000  0.50989
970.0000  0.50913
972.0000  0.50887
974.0000  0.50820
976.0000  0.50946
978.0000  0.50899
980.0000  0.50952
982.0000  0.51021
984.0000  0.51022
986.0000  0.50989
988.0000  0.51138
990.0000  0.51213
992.0000  0.51322
994.0000  0.51351
996.0000  0.51431
998.0000  0.51513
1000 0.51526
1002 0.51865
1004 0.51976
1006 0.52093
1008 0.52226
1010 0.52346
1012 0.52510
1014 0.52586
1016 0.52764
1018 0.52900
1020 0.53031
1022 0.53122
1024 0.53283
1026 0.53418
1028 0.53566
1030 0.53699
1032 0.53827
1034 0.53912
1036 0.54044
1038 0.54175
1040 0.54294
1042 0.54401
1044 0.54505
1046 0.54595
1048 0.54688
1050 0.54779
1052 0.54846
1054 0.54947
1056 0.55019
1058 0.55064
1060 0.55136
1062 0.55208
1064 0.55285
1066 0.55317
1068 0.55365
1070 0.55433
1072 0.55450
1074 0.55445
1076 0.55474
1078 0.55507
1080 0.55515
1082 0.55560
1084 0.55552
1086 0.55564
1088 0.55566
1090 0.55567
1092 0.55571
1094 0.55547
1096 0.55560
1098 0.55563
1100 0.55527
1102 0.55544
1104 0.55535
1106 0.55504
1108 0.55540
1110 0.55526
1112 0.55522
1114 0.55531
1116 0.55526
1118 0.55560
1120 0.55552
1122 0.55431
1124 0.55341
1126 0.55120
1128 0.54821
1130 0.54465
1132 0.54053
1134 0.53596
1136 0.53206
1138 0.52762
1140 0.52331
1142 0.51797
1144 0.51270
1146 0.50675
1148 0.50073
1150 0.49502
1152 0.49024
1154 0.48637
1156 0.48363
1158 0.48109
1160 0.47899
1162 0.47738
1164 0.47623
1166 0.47481
1168 0.47397
1170 0.47308
1172 0.47228
1174 0.47158
1176 0.47144
1178 0.47075
1180 0.46997
1182 0.46955
1184 0.46885
1186 0.46816
1188 0.46748
1190 0.46689
1192 0.46653
1194 0.46647
1196 0.46639
1198 0.46640
1200 0.46650
1202 0.46659
1204 0.46717
1206 0.46740
1208 0.46802
1210 0.46868
1212 0.46924
1214 0.47002
1216 0.47070
1218 0.47177
1220 0.47250
1222 0.47345
1224 0.47449
1226 0.47563
1228 0.47650
1230 0.47765
1232 0.47891
1234 0.47972
1236 0.48061
1238 0.48137
1240 0.48253
1242 0.48355
1244 0.48451
1246 0.48556
1248 0.48628
1250 0.48720
1252 0.48809
1254 0.48916
1256 0.49001
1258 0.49076
1260 0.49157
1262 0.49229
1264 0.49288
1266 0.49319
1268 0.49338
1270 0.49356
1272 0.49339
1274 0.49320
1276 0.49332
1278 0.49303
1280 0.49235
1282 0.49190
1284 0.49112
1286 0.49031
1288 0.48927
1290 0.48828
1292 0.48730
1294 0.48583
1296 0.48441
1298 0.48277
1300 0.48081
1302 0.47868
1304 0.47641
1306 0.47418
1308 0.47150
1310 0.46850
1312 0.46534
1314 0.46199
1316 0.45847
1318 0.45465
1320 0.45089
1322 0.44709
1324 0.44334
1326 0.43971
1328 0.43542
1330 0.43078
1332 0.42594
1334 0.42109
1336 0.41674
1338 0.41327
1340 0.40963
1342 0.40624
1344 0.40415
1346 0.40202
1348 0.39980
1350 0.39805
1352 0.39597
1354 0.39479
1356 0.39383
1358 0.39230
1360 0.38968
1362 0.39116
1364 0.39205
1366 0.38063
1368 0.36275
1370 0.34414
1372 0.35481
1374 0.35779
1376 0.35970
1378 0.35465
1380 0.32949
1382 0.31324
1384 0.28782
1386 0.26614
1388 0.25261
1390 0.23695
1392 0.22176
1394 0.20981
1396 0.20014
1398 0.18964
1400 0.17784
1402 0.16692
1404 0.15729
1406 0.14928
1408 0.14143
1410 0.13506
1412 0.13067
1414 0.12697
1416 0.12304
1418 0.11991
1420 0.11745
1422 0.11480
1424 0.11257
1426 0.11051
1428 0.10890
1430 0.10764
1432 0.10620
1434 0.10467
1436 0.10331
1438 0.10202
1440 0.10097
1442 0.10018
1444 0.09946
1446 0.09904
1448 0.09842
1450 0.09806
1452 0.09788
1454 0.09778
1456 0.09766
1458 0.09779
1460 0.09797
1462 0.09830
1464 0.09894
1466 0.09977
1468 0.10078
1470 0.10205
1472 0.10333
1474 0.10464
1476 0.10606
1478 0.10758
1480 0.10923
1482 0.11088
1484 0.11270
1486 0.11447
1488 0.11630
1490 0.11815
1492 0.12002
1494 0.12182
1496 0.12363
1498 0.12568
1500 0.12777
1502 0.12995
1504 0.13214
1506 0.13445
1508 0.13692
1510 0.13918
1512 0.14158
1514 0.14411
1516 0.14638
1518 0.14895
1520 0.15130
1522 0.15364
1524 0.15628
1526 0.15873
1528 0.16123
1530 0.16366
1532 0.16618
1534 0.16867
1536 0.17122
1538 0.17360
1540 0.17610
1542 0.17840
1544 0.18106
1546 0.18349
1548 0.18597
1550 0.18830
1552 0.19075
1554 0.19310
1556 0.19538
1558 0.19770
1560 0.20001
1562 0.20226
1564 0.20444
1566 0.20651
1568 0.20874
1570 0.21066
1572 0.21289
1574 0.21525
1576 0.21737
1578 0.21956
1580 0.22172
1582 0.22352
1584 0.22557
1586 0.22729
1588 0.22931
1590 0.23099
1592 0.23290
1594 0.23480
1596 0.23642
1598 0.23819
1600 0.23995
1602 0.24188
1604 0.24360
1606 0.24545
1608 0.24716
1610 0.24874
1612 0.25033
1614 0.25176
1616 0.25314
1618 0.25467
1620 0.25607
1622 0.25727
1624 0.25851
1626 0.26033
1628 0.26209
1630 0.26342
1632 0.26423
1634 0.26497
1636 0.26583
1638 0.26715
1640 0.26837
1642 0.26947
1644 0.27056
1646 0.27138
1648 0.27219
1650 0.27303
1652 0.27348
1654 0.27403
1656 0.27467
1658 0.27508
1660 0.27554
1662 0.27588
1664 0.27620
1666 0.27667
1668 0.27684
1670 0.27692
1672 0.27703
1674 0.27719
1676 0.27735
1678 0.27720
1680 0.27712
1682 0.27653
1684 0.27616
1686 0.27555
1688 0.27499
1690 0.27439
1692 0.27357
1694 0.27283
1696 0.27212
1698 0.27153
1700 0.27081
1702 0.27004
1704 0.26929
1706 0.26833
1708 0.26777
1710 0.26667
1712 0.26547
1714 0.26451
1716 0.26386
1718 0.26283
1720 0.26185
1722 0.26067
1724 0.25969
1726 0.25883
1728 0.25758
1730 0.25640
1732 0.25539
1734 0.25454
1736 0.25342
1738 0.25250
1740 0.25117
1742 0.24965
1744 0.24810
1746 0.24696
1748 0.24537
1750 0.24346
1752 0.24211
1754 0.24045
1756 0.23849
1758 0.23718
1760 0.23518
1762 0.23388
1764 0.23262
1766 0.23153
1768 0.23015
1770 0.22906
1772 0.22804
1774 0.22725
1776 0.22669
1778 0.22665
1780 0.22580
1782 0.22552
1784 0.22498
1786 0.22495
1788 0.22505
1790 0.22545
1792 0.22547
1794 0.22579
1796 0.22593
1798 0.22705
1800 0.22794
1802 0.22699
1804 0.22825
1806 0.22918
1808 0.22987
1810 0.23109
1812 0.23222
1814 0.23372
1816 0.23682
1818 0.23899
1820 0.23852
1822 0.23793
1824 0.23788
1826 0.24243
1828 0.25172
1830 0.26448
1832 0.28166
1834 0.28192
1836 0.29024
1838 0.31656
1840 0.36635
1842 0.39631
1844 0.39914
1846 0.41814
1848 0.55196
1850 0.59628
1852 0.49765
1854 0.42877
1856 0.38884
1858 0.30376
1860 0.23150
1862 0.21386
1864 0.25976
1866 0.25738
1868 0.21666
1870 0.22686
1872 0.22173
1874 0.18717
1876 0.14704
1878 0.13009
1880 0.11948
1882 0.10657
1884 0.09457
1886 0.10048
1888 0.09599
1890 0.08791
1892 0.08403
1894 0.08331
1896 0.08690
1898 0.08487
1900 0.08217
1902 0.08097
1904 0.10069
1906 0.11106
1908 0.08951
1910 0.05326
1912 0.04552
1914 0.04661
1916 0.04172
1918 0.03952
1920 0.03736
1922 0.03623
1924 0.03358
1926 0.03193
1928 0.03175
1930 0.03019
1932 0.02929
1934 0.02905
1936 0.02914
1938 0.02971
1940 0.02911
1942 0.02932
1944 0.02948
1946 0.02956
1948 0.02954
1950 0.03039
1952 0.03111
1954 0.03143
1956 0.03156
1958 0.03179
1960 0.03252
1962 0.03321
1964 0.03373
1966 0.03386
1968 0.03407
1970 0.03436
1972 0.03470
1974 0.03525
1976 0.03591
1978 0.03656
1980 0.03716
1982 0.03779
1984 0.03839
1986 0.03891
1988 0.03952
1990 0.04041
1992 0.04110
1994 0.04163
1996 0.04226
1998 0.04308
2000 0.04423
2002 0.04573
2004 0.04806
2006 0.05021
2008 0.05155
2010 0.05258
2012 0.05371
2014 0.05428
2016 0.05543
2018 0.05579
2020 0.05657
2022 0.05724
2024 0.05776
2026 0.05821
2028 0.05888
2030 0.05955
2032 0.06071
2034 0.06108
2036 0.06120
2038 0.06208
2040 0.06319
2042 0.06411
2044 0.06503
2046 0.06567
2048 0.06643
2050 0.06761
2052 0.06883
2054 0.06996
2056 0.07111
2058 0.07262
2060 0.07338
2062 0.07412
2064 0.07511
2066 0.07613
2068 0.07717
2070 0.07823
2072 0.07913
2074 0.08018
2076 0.08154
2078 0.08251
2080 0.08269
2082 0.08377
2084 0.08504
2086 0.08617
2088 0.08745
2090 0.08831
2092 0.08917
2094 0.09058
2096 0.09149
2098 0.09246
2100 0.09355
2102 0.09450
2104 0.09556
2106 0.09648
2108 0.09748
2110 0.09898
2112 0.09950
2114 0.10102
2116 0.10219
2118 0.10319
2120 0.10427
2122 0.10545
2124 0.10646
2126 0.10740
2128 0.10877
2130 0.10992
2132 0.11057
2134 0.11090
2136 0.11208
2138 0.11296
2140 0.11431
2142 0.11453
2144 0.11627
2146 0.11703
2148 0.11787
2150 0.11823
2152 0.11902
2154 0.11917
2156 0.11969
2158 0.12079
2160 0.12089
2162 0.12140
2164 0.12119
2166 0.12180
2168 0.12193
2170 0.12274
2172 0.12279
2174 0.12334
2176 0.12368
2178 0.12376
2180 0.12429
2182 0.12392
2184 0.12497
2186 0.12484
2188 0.12590
2190 0.12608
2192 0.12623
2194 0.12700
2196 0.12721
2198 0.12700
2200 0.12747
2202 0.12703
2204 0.12725
2206 0.12846
2208 0.12821
2210 0.12754
2212 0.12779
2214 0.12696
2216 0.12729
2218 0.12729
2220 0.12760
2222 0.12780
2224 0.12776
2226 0.12644
2228 0.12534
2230 0.12442
2232 0.12497
2234 0.12409
2236 0.12381
2238 0.12285
2240 0.12169
2242 0.12066
2244 0.12026
2246 0.11922
2248 0.11810
2250 0.11834
2252 0.11760
2254 0.11663
2256 0.11581
2258 0.11545
2260 0.11439
2262 0.11413
2264 0.11302
2266 0.11255
2268 0.11089
2270 0.10972
2272 0.10890
2274 0.10774
2276 0.10762
2278 0.10643
2280 0.10611
2282 0.10562
2284 0.10442
2286 0.10420
2288 0.10381
2290 0.10259
2292 0.10217
2294 0.10097
2296 0.09992
2298 0.09935
2300 0.09867
2302 0.09644
2304 0.09583
2306 0.09468
2308 0.09302
2310 0.09206
2312 0.09094
2314 0.09028
2316 0.08973
2318 0.08923
2320 0.08892
2322 0.08808
2324 0.08785
2326 0.08706
2328 0.08724
2330 0.08657
2332 0.08616
2334 0.08489
2336 0.08336
2338 0.08249
2340 0.08181
2342 0.08117
2344 0.08011
2346 0.07812
2348 0.07860
2350 0.07858
2352 0.07655
2354 0.07640
2356 0.07572
2358 0.07543
2360 0.07442
2362 0.07331
2364 0.07237
2366 0.07255
2368 0.07039
2370 0.06860
2372 0.06801
2374 0.06692
2376 0.06721
2378 0.06754
2380 0.06718
2382 0.06582
2384 0.06367
2386 0.06333
2388 0.06445
2390 0.06363
2392 0.06306
2394 0.06203
2396 0.06143
2398 0.05807
2400 0.05596
2402 0.05865
2404 0.05668
2406 0.05347
2408 0.05263
2410 0.05183
2412 0.05193
2414 0.05401
2416 0.05101
2418 0.04777
2420 0.04828
2422 0.05000
2424 0.05009
2426 0.04798
2428 0.04610
2430 0.04491
2432 0.04584
2434 0.04469
2436 0.04159
2438 0.03851
2440 0.03826
2442 0.03838
2444 0.03533
2446 0.03528
2448 0.03711
2450 0.03689
2452 0.03726
2454 0.03664
2456 0.03527
2458 0.03192
2460 0.03192
2462 0.03291
2464 0.03222
2466 0.03034
2468 0.02927
2470 0.02503
2472 0.02214
2474 0.02148
2476 0.02491
2478 0.03069
2480 0.02562
2482 0.01266
2484 0.00447
2486 0.00000
2488 0.00656
2490 0.01334
2492 0.00646
2494 0.00000
2496 0.00000
2498 0.00000
2500 0.00881